"Code","Codelist Code","Codelist Extensible (Yes/No)","Codelist Name","CDISC Submission Value","CDISC Synonym(s)","CDISC Definition","NCI Preferred Term","Standard and Date"
"C66781","","No","Age Unit","AGEU","Age Unit","Those units of time that are routinely used to express the age of a subject.","CDISC SDTM Age Unit Terminology","SDTM CT 2026-03-27"
"C25301","C66781","","Age Unit","DAYS","","A unit of measurement of time equal to 24 hours.","Day","SDTM CT 2026-03-27"
"C25529","C66781","","Age Unit","HOURS","h; Hours; hr","A unit of measurement of time equal to 60 minutes.","Hour","SDTM CT 2026-03-27"
"C29846","C66781","","Age Unit","MONTHS","Month","One of the 12 divisions of a year as determined by a calendar. It corresponds to the unit of time of approximately to one cycle of the moon's phases, about 30 days or 4 weeks. (NCI)","Month","SDTM CT 2026-03-27"
"C29844","C66781","","Age Unit","WEEKS","Week","Any period of seven consecutive days. (NCI)","Week","SDTM CT 2026-03-27"
"C29848","C66781","","Age Unit","YEARS","Year","The period of time that it takes for Earth to make a complete revolution around the sun, approximately 365 days; a specific one year period. (NCI)","Year","SDTM CT 2026-03-27"
"C66788","","Yes","Dictionary Name","DICTNAM","Dictionary Name","Terminology relevant to the names given to a reference source that lists words and gives their meaning.","CDISC Dictionary Name Terminology","SDTM CT 2026-03-27"
"C163415","C66788","","Dictionary Name","CDISC CT","CDISC Controlled Terminology; Clinical Data Interchange Standards Consortium Controlled Terminology","A standard terminology developed and maintained by Clinical Data Interchange Standards Consortium (CDISC) and the National Cancer Institute Enterprise Vocabulary Services (NCI-EVS) to support CDISC models, domains and specifications for data representation in regulated research.","Clinical Data Interchange Standards Consortium Controlled Terminology","SDTM CT 2026-03-27"
"C124233","C66788","","Dictionary Name","ClinicalTrials.gov","","An electronic registry and results database of clinical trial information submitted by sponsors, which informs users about ongoing clinical trials in the US.","ClinicalTrials.gov","SDTM CT 2026-03-27"
"C49471","C66788","","Dictionary Name","COSTART","Coding Symbols for a Thesaurus of Adverse Reaction Terms","A terminology developed and used by the Food and Drug Administration (FDA) for the coding, filing and retrieving of post marketing adverse reaction reports. (NCI)","Thesaurus of Adverse Reaction Term Coding Symbols","SDTM CT 2026-03-27"
"C49704","C66788","","Dictionary Name","CTCAE","Common Terminology Criteria for Adverse Events","A standard terminology developed and maintained by the National Cancer Institute to report adverse events occurring in cancer clinical trials. The CTCAE contains a grading scale for each adverse event term representing the severity of the event. (NCI)","Common Terminology Criteria for Adverse Events","SDTM CT 2026-03-27"
"C221530","C66788","","Dictionary Name","CTIS","EMA Clinical Trials Information System","An electronic registry database of clinical trial information submitted by sponsors, which informs users about ongoing clinical trials in European Union (EU) member states and European Economic Area (EEA) countries.","EMA Clinical Trials Information System","SDTM CT 2026-03-27"
"C134003","C66788","","Dictionary Name","D-U-N-S NUMBER","Data Universal Number System; DUNS Numbers","A proprietary system developed and regulated by Dun & Bradstreet that assigns a unique nine digit numeric identifier to a single business entity location.","Data Universal Numbering System","SDTM CT 2026-03-27"
"C132782","C66788","","Dictionary Name","EudraCT","European Union Drug Regulating Authorities Clinical Trials Database","The European Union's electronic database of clinical trials, which contains information submitted by sponsors and informs users about ongoing clinical trials in EU Member States and European Economic Area countries.","European Union Drug Regulating Authorities Clinical Trials Database","SDTM CT 2026-03-27"
"C221532","C66788","","Dictionary Name","EUDRAVIGILANCE","EudraVigilance","The system for managing and analysing information on suspected adverse reactions to medicines which have been authorised or being studied in clinical trials in the European Economic Area (EEA). The European Medicines Agency (EMA) operates the system on behalf of the European Union (EU) medicines regulatory network. (EMA)","EudraVigilance","SDTM CT 2026-03-27"
"C221529","C66788","","Dictionary Name","GENC","Geopolitical Entities, Names, and Codes","Codes for the representation of names of countries and their subdivisions that have been approved by the US Board on Geographic Names.","Geopolitical Entities, Names, and Codes","SDTM CT 2026-03-27"
"C49474","C66788","","Dictionary Name","ICD","International Classification of Diseases","A system of categories to which morbid entries are assigned according to established criteria. Included is the entire range of conditions in a manageable number of categories, grouped to facilitate mortality reporting. It is produced by the World Health Organization (from ICD-10, p1). The Clinical Modifications, produced by the United States Dept. of Health and Human Services, are larger extensions used for morbidity and general epidemiological purposes, primarily in the U.S. (MSH2005_2004_10_12)","International Classification of Diseases","SDTM CT 2026-03-27"
"C37978","C66788","","Dictionary Name","ICD-O","International Classification of Diseases for Oncology","A World Health Organization (WHO) multi-axial classification of the site, morphology, behaviour, and grading of neoplasms.","International Classification of Diseases for Oncology","SDTM CT 2026-03-27"
"C81895","C66788","","Dictionary Name","ISO 21090","","An international standard for harmonized data types for information interchange, developed and maintained by the International Organization for Standards (ISO).","ISO 21090","SDTM CT 2026-03-27"
"C209537","C66788","","Dictionary Name","ISO 3166","","An international standard for country and subdivision codes, developed and maintained by the International Organization for Standards (ISO).","ISO 3166","SDTM CT 2026-03-27"
"C221531","C66788","","Dictionary Name","jRCT","Japan Registry for Clinical Trials; Japan Registry of Clinical Trials","An electronic registry database of clinical trial information submitted by sponsors, which informs users about ongoing clinical trials in Japan.","Japan Registry of Clinical Trials","SDTM CT 2026-03-27"
"C49476","C66788","","Dictionary Name","LOINC","Logical Observation Identifiers Names and Codes","Published by The Regenstrief Institute, the Logical Observation Identifiers Names and Codes covers clinical and clinical laboratory terminology. (NCI)","Logical Observation Identifiers Names and Codes","SDTM CT 2026-03-27"
"C163416","C66788","","Dictionary Name","MED-RT","Medication Reference Terminology; NDF-RT","A standard terminology developed and maintained by the Veterans Health Administration (VHA) that includes terminology to support the mechanism of action, physiologic effect, and asserted pharmacologic classification relationships of medications. MED-RT incorporates terminology from RxNORM, MeSH, and SNOMED CT.","Medication Reference Terminology","SDTM CT 2026-03-27"
"C43820","C66788","","Dictionary Name","MedDRA","Medical Dictionary for Regulatory Activities","An international medical terminology designed to support the classification, retrieval, presentation, and communication of medical information, particularly to regulatory authorities.","MedDRA","SDTM CT 2026-03-27"
"C82845","C66788","","Dictionary Name","MeSH","Medical Subject Headings","The US National Library of Medicine's controlled vocabulary thesaurus used for indexing articles for PubMed. It consists of sets of terms and descriptions in a hierarchical structure that permits searching at various levels of specificity.","Medical Subject Headings","SDTM CT 2026-03-27"
"C42881","C66788","","Dictionary Name","PubMed","","A web application from the US National Library of Medicine (NLM) that provides a single query interface for biomedical journal articles.","PubMed","SDTM CT 2026-03-27"
"C53489","C66788","","Dictionary Name","SNOMED","Systematized Nomenclature of Medicine","A structured nomenclature and classification of the terminology used in human and veterinary medicine developed by the College of Pathologists and American Veterinary Medical Association. (CDISC Glossary)","Systematized Nomenclature of Medicine","SDTM CT 2026-03-27"
"C163417","C66788","","Dictionary Name","UNII","SRS-UNII; Substance Registration System-Unique Ingredient Identifier","A standard terminology developed and maintained by the Department of Veterans Affairs/Veterans Health Administration designated federal collaborative Structured Product Labeling Interagency Expert Panel (SPLIEP). It contains terminology to support the mechanism of action, physiologic effect, and asserted pharmacologic classification relationships of drug ingredients and food allergens.","Substance Registration System-Unique Ingredient Identifier","SDTM CT 2026-03-27"
"C154331","C66788","","Dictionary Name","WHO ATC CLASSIFICATION SYSTEM","Anatomical Therapeutic Chemical Classification System","A World Health Organization (WHO) classification system, developed and maintained by the WHO Collaborating Centre for Drug Statistics Methodology, for medicinal substances where active substances are divided into different groups according to the organ or system on which they act and their therapeutic, pharmacological, and chemical properties.","Anatomical Therapeutic Chemical Classification System","SDTM CT 2026-03-27"
"C49468","C66788","","Dictionary Name","WHOART","World Health Organization Adverse Reaction Terms","A terminology implemented by the World Health Organization to describe adverse reactions to a prescribed medication or treatment regimen. (NCI)","World Health Organization Adverse Reaction Terminology","SDTM CT 2026-03-27"
"C49475","C66788","","Dictionary Name","WHODD","UMC Drug Dictionary; UMCDD; Uppsala Monitoring Centre Drug Dictionary; WHODrug Global; World Health Organization Drug Dictionary","A reference source of drugs and drug associated information maintained by the World Health Organization. (NCI)","World Health Organization Drug Dictionary","SDTM CT 2026-03-27"
"C66742","","No","No Yes Response","NY","No Yes Response","A term that is used to indicate a question with permissible values of yes/no/unknown/not applicable.","CDISC SDTM Yes No Unknown or Not Applicable Response Terminology","SDTM CT 2026-03-27"
"C49487","C66742","","No Yes Response","N","No","The non-affirmative response to a question. (NCI)","No","SDTM CT 2026-03-27"
"C48660","C66742","","No Yes Response","NA","NA; Not Applicable","Determination of a value is not relevant in the current context. (NCI)","Not Applicable","SDTM CT 2026-03-27"
"C17998","C66742","","No Yes Response","U","U; UNK; Unknown","Not known, not observed, not recorded, or refused. (NCI)","Unknown","SDTM CT 2026-03-27"
"C49488","C66742","","No Yes Response","Y","Yes","The affirmative response to a question. (NCI)","Yes","SDTM CT 2026-03-27"
"C66769","","No","Severity/Intensity Scale for Adverse Events","AESEV","Severity/Intensity Scale for Adverse Events","A scale that defines the degree or state of disease existing in a patient as a result of the occurrence of an adverse event. (NCI)","CDISC SDTM Severity Intensity Scale for Adverse Event Terminology","SDTM CT 2026-03-27"
"C41338","C66769","","Severity/Intensity Scale for Adverse Events","MILD","1; Grade 1","A type of adverse event that is usually transient and may require only minimal treatment or therapeutic intervention. The event does not generally interfere with usual activities of daily living.","Mild Adverse Event","SDTM CT 2026-03-27"
"C41339","C66769","","Severity/Intensity Scale for Adverse Events","MODERATE","2; Grade 2","A type of adverse event that is usually alleviated with additional specific therapeutic intervention. The event interferes with usual activities of daily living, causing discomfort but poses no significant or permanent risk of harm to the research participant.","Moderate Adverse Event","SDTM CT 2026-03-27"
"C41340","C66769","","Severity/Intensity Scale for Adverse Events","SEVERE","3; Grade 3","A type of adverse event that interrupts usual activities of daily living, or significantly affects clinical status, or may require intensive therapeutic intervention.","Severe Adverse Event","SDTM CT 2026-03-27"
"C66731","","No","Sex","SEX","Sex","A terminology codelist relevant to the assemblage of physical properties or qualities by which male is distinguished from female; the physical difference between male and female; the distinguishing peculiarity of male or female.","CDISC SDTM Sex of Individual Terminology","SDTM CT 2026-03-27"
"C16576","C66731","","Sex","F","Female","A person who belongs to the sex that normally produces ova. The term is used to indicate biological sex distinctions, or cultural gender role distinctions, or both. [The NCI Thesaurus contains biomedical terminologies that NCI does not own or control. This concept contains gender-related content that does not comply with Executive Order 14168.]","Female","SDTM CT 2026-03-27"
"C45908","C66731","","Sex","INTERSEX","","A person (one of unisexual specimens) who is born with genitalia and/or secondary sexual characteristics of indeterminate sex, or which combine features of both sexes. (NCI)","Intersex","SDTM CT 2026-03-27"
"C20197","C66731","","Sex","M","Male","A person who belongs to the sex that normally produces sperm. The term is used to indicate biological sex distinctions, cultural gender role distinctions, or both. [The NCI Thesaurus contains biomedical terminologies that NCI does not own or control. This concept contains gender-related content that does not comply with Executive Order 14168.]","Male","SDTM CT 2026-03-27"
"C17998","C66731","","Sex","U","U; UNK; Unknown","Not known, not observed, not recorded, or refused. (NCI)","Unknown","SDTM CT 2026-03-27"
